"rt","stimulus","response","trial_type","trial_index","time_elapsed","internal_node_id","workerId","interview_date","handedness","version","difficulty","max_strikes","max_streaks","index","deck_contingencies","streak","strike","key_press","reward_type","reversal_type","reward_tally","rating_random","rating_sabotage"
"1419","
        <p>Welcome to the experiment!</p>
        <p>Press any key to begin.</p>"," ","html-keyboard-response","0","1434","0.0-0.0","","","","","","","","","","","","","","","","",""
"883","
        <p>In this study, you will play a game about working with people, and your goal is to win as many points as you can.</p>
        <p>If your score lands you in the top 25% of participants, you will get an extra $2 bonus, so please do your best!</p>
        <p>Please press the zero (0) key to continue.</p>","0","html-keyboard-response","1","2318","0.0-1.0","","","","","","","","","","","","","","","","",""
"381","
        <p>Imagine you are beginning a new job and your boss regularly evaluates you.</p>
        <p>When you perform well, you earn points with your boss (+100); however poor performance will lead you to lose points (-50).</p>
        <p>To complete tasks successfully, you must rely on co-workers for advice and help. Some of your co-workers are helpful, whereas others are not.</p>
        <p>Furthermore, sometimes they will want to see you fail and switch from helping you to actively hurting your performance.</p>
        <p>Your goal is to earn as many points as possible.</p>
        <p>Three co-workers are shown below. On each turn, you will select one to ask for help. You can choose a co-worker using the <i>1</i>, <i>2</i>, or <i>3</i> keys on your keyboard to choose the <i>left</i>, <i>middle</i>, or <i>right</i> deck respectively.</p>
        <p>Let's practice choosing co-workers.</p>
        <p>Please choose the <strong>left</strong> co-worker by pressing the <strong>1</strong> key.
        <div class='image-container'>
            <img class='stimuli-left' src='stim/avatar/0/red.png'>
            <img class='stimuli-middle' src='stim/avatar/0/blue.png'>
            <img class='stimuli-right' src='stim/avatar/0/black.png'>
        </div>","1","html-keyboard-response","2","2699","0.0-2.0","","","","","","","","","","","","","","","","",""
"431","
        <p>Great! Now choose the <strong>middle</strong> co-worker by pressing the <strong>2</strong> key.</p>
        <div class='image-container'>
            <img class='stimuli-left' src='stim/avatar/0/red.png'>
            <img class='stimuli-middle' src='stim/avatar/0/blue.png'>
            <img class='stimuli-right' src='stim/avatar/0/black.png'>
        </div>","2","html-keyboard-response","3","3132","0.0-3.0","","","","","","","","","","","","","","","","",""
"307","
        <p>Excellent! Now choose the <strong>right</strong> co-worker by pressing the <strong>3</strong> key.</p>
        <div class='image-container'>
            <img class='stimuli-left' src='stim/avatar/0/red.png'>
            <img class='stimuli-middle' src='stim/avatar/0/blue.png'>
            <img class='stimuli-right' src='stim/avatar/0/black.png'>
        </div>","3","html-keyboard-response","4","3442","0.0-4.0","","","","","","","","","","","","","","","","",""
"442","
        <p>Good job! You have successfully practiced selecting co-workers for help.</p>
        <p>After you select a co-worker, you will see if they helped you earn points with the boss (+100 points) or lose points with the boss (-50 points).</p>
        <p>Below you can see what those outcomes look like:</p>
        <div class='outcome-container'>
            <img class='outcome-left' src='stim/outcome/scaled_win.jpg'>
            <img class='outcome-right' src='stim/outcome/scaled_lose.jpg'>
        </div>
        <p><strong>Note that each co-worker is different. Your job is to find the best co-worker, and to get as many points as possible.</p>
        <p>However, no co-worker is perfect. Anyone can have a bad day.</strong></p>
        <p>Please press the zero (0) key to continue.","0","html-keyboard-response","5","3885","0.0-5.0","","","","","","","","","","","","","","","","",""
"551","
        <p>However, there is one final catch:</p>
        <p><b>Sometimes, the co-workers may change! The co-worker that previously helped may start to sabotage you while the other co-workers become helpful.</b></p>
        <p>If you think the best co-worker has changed, then try to find out the new best co-worker.</p>
        <br />
        <p>The following is a practice round of just 3 turns.<p>
        <p>The points you get here won’t change your final score, and the best co-worker will change between the practice round and when the real game starts.</p>
        <br /><br />
        Please press the zero (0) key to start the practice round.","0","html-keyboard-response","6","4436","0.0-6.0","","","","","","","","","","","","","","","","",""
"null","<div style='font-size:40px'>+</div>","null","html-keyboard-response","7","4937","0.0-7.0-0.0","","","","","","","","","","","","","","","","",""
"369","
            <div class='image-container'>
                <img class='stimuli-left' src='stim/avatar/0/red.png'>
                <img class='stimuli-middle' src='stim/avatar/0/blue.png'>
                <img class='stimuli-right' src='stim/avatar/0/black.png'>
            </div>","1","html-keyboard-response","8","5308","0.0-7.0-1.0","","","","","","","","","","","","","","","","",""
"null","
                <div class='image-container'>
                    <img class='stimuli-left' src='stim/outcome/scaled_lose.jpg'>
                    <img class='stimuli-middle' src='stim/avatar/0/blue.png'>
                    <img class='stimuli-right' src='stim/avatar/0/black.png'>
                </div>","null","html-keyboard-response","9","6311","0.0-7.0-2.0","","","","","","","","","","","","","","","","",""
"null","<div style='font-size:40px'>+</div>","null","html-keyboard-response","10","6813","0.0-7.0-0.1","","","","","","","","","","","","","","","","",""
"1944","
            <div class='image-container'>
                <img class='stimuli-left' src='stim/avatar/0/red.png'>
                <img class='stimuli-middle' src='stim/avatar/0/blue.png'>
                <img class='stimuli-right' src='stim/avatar/0/black.png'>
            </div>","3","html-keyboard-response","11","8759","0.0-7.0-1.1","","","","","","","","","","","","","","","","",""
"null","
                <div class='image-container'>
                    <img class='stimuli-left' src='stim/avatar/0/red.png'>
                    <img class='stimuli-middle' src='stim/avatar/0/blue.png'>
                    <img class='stimuli-right' src='stim/outcome/scaled_lose.jpg'>
                </div>","null","html-keyboard-response","12","9762","0.0-7.0-2.1","","","","","","","","","","","","","","","","",""
"null","<div style='font-size:40px'>+</div>","null","html-keyboard-response","13","10264","0.0-7.0-0.2","","","","","","","","","","","","","","","","",""
"243","
            <div class='image-container'>
                <img class='stimuli-left' src='stim/avatar/0/red.png'>
                <img class='stimuli-middle' src='stim/avatar/0/blue.png'>
                <img class='stimuli-right' src='stim/avatar/0/black.png'>
            </div>","2","html-keyboard-response","14","10509","0.0-7.0-1.2","","","","","","","","","","","","","","","","",""
"null","
                <div class='image-container'>
                    <img class='stimuli-left' src='stim/avatar/0/red.png'>
                    <img class='stimuli-middle' src='stim/outcome/scaled_lose.jpg'>
                    <img class='stimuli-right' src='stim/avatar/0/black.png'>
                </div>","null","html-keyboard-response","15","11513","0.0-7.0-2.2","","","","","","","","","","","","","","","","",""
"1542","
        <p>You have now completed the practice round.</p>
        <p>The main task will take approximately another 10 minutes, with longer individual rounds than the practice.</p>
        <p>Please press the zero (0) key whenever you are ready to start the main task.</p>","0","html-keyboard-response","16","13063","0.0-8.0","","","","","","","","","","","","","","","","",""
"null","<div style='font-size:40px'>+</div>","null","html-keyboard-response","17","13566","0.0-9.0-0.0","","","","","","","","","","","","","","","","",""
"3402","
            <div class='image-container'>
                <img class='stimuli-left' src='stim/avatar/0/red.png'>
                <img class='stimuli-middle' src='stim/avatar/0/blue.png'>
                <img class='stimuli-right' src='stim/avatar/0/black.png'>
            </div>","1","html-keyboard-response","18","16970","0.0-9.0-1.0","","","","","","","","","","","","","","","","",""
"3402","
                <div class='image-container'>
                    <img class='stimuli-left' src='stim/outcome/scaled_win.jpg'>
                    <img class='stimuli-middle' src='stim/avatar/0/blue.png'>
                    <img class='stimuli-right' src='stim/avatar/0/black.png'>
                </div>","1","html-keyboard-response","19","17974","0.0-9.0-2.0","333","02/20/2024","","sabotage","easy-hard","2","9","1","[0.9,0.5,0.1]","1","0","49","","false","100","",""
"null","<div style='font-size:40px'>+</div>","null","html-keyboard-response","20","18476","0.0-9.0-0.1","","","","","","","","","","","","","","","","",""
"312","
            <div class='image-container'>
                <img class='stimuli-left' src='stim/avatar/0/red.png'>
                <img class='stimuli-middle' src='stim/avatar/0/blue.png'>
                <img class='stimuli-right' src='stim/avatar/0/black.png'>
            </div>","1","html-keyboard-response","21","18791","0.0-9.0-1.1","","","","","","","","","","","","","","","","",""
"312","
                <div class='image-container'>
                    <img class='stimuli-left' src='stim/outcome/scaled_win.jpg'>
                    <img class='stimuli-middle' src='stim/avatar/0/blue.png'>
                    <img class='stimuli-right' src='stim/avatar/0/black.png'>
                </div>","1","html-keyboard-response","22","19794","0.0-9.0-2.1","333","02/20/2024","","sabotage","easy-hard","2","9","2","[0.9,0.5,0.1]","2","0","49","","false","200","",""
"null","<div style='font-size:40px'>+</div>","null","html-keyboard-response","23","20296","0.0-9.0-0.2","","","","","","","","","","","","","","","","",""
"263","
            <div class='image-container'>
                <img class='stimuli-left' src='stim/avatar/0/red.png'>
                <img class='stimuli-middle' src='stim/avatar/0/blue.png'>
                <img class='stimuli-right' src='stim/avatar/0/black.png'>
            </div>","1","html-keyboard-response","24","20560","0.0-9.0-1.2","","","","","","","","","","","","","","","","",""
"263","
                <div class='image-container'>
                    <img class='stimuli-left' src='stim/outcome/scaled_win.jpg'>
                    <img class='stimuli-middle' src='stim/avatar/0/blue.png'>
                    <img class='stimuli-right' src='stim/avatar/0/black.png'>
                </div>","1","html-keyboard-response","25","21564","0.0-9.0-2.2","333","02/20/2024","","sabotage","easy-hard","2","9","3","[0.9,0.5,0.1]","3","0","49","","false","300","",""
"null","<div style='font-size:40px'>+</div>","null","html-keyboard-response","26","22066","0.0-9.0-0.3","","","","","","","","","","","","","","","","",""
"267","
            <div class='image-container'>
                <img class='stimuli-left' src='stim/avatar/0/red.png'>
                <img class='stimuli-middle' src='stim/avatar/0/blue.png'>
                <img class='stimuli-right' src='stim/avatar/0/black.png'>
            </div>","1","html-keyboard-response","27","22335","0.0-9.0-1.3","","","","","","","","","","","","","","","","",""
"267","
                <div class='image-container'>
                    <img class='stimuli-left' src='stim/outcome/scaled_win.jpg'>
                    <img class='stimuli-middle' src='stim/avatar/0/blue.png'>
                    <img class='stimuli-right' src='stim/avatar/0/black.png'>
                </div>","1","html-keyboard-response","28","23338","0.0-9.0-2.3","333","02/20/2024","","sabotage","easy-hard","2","9","4","[0.9,0.5,0.1]","4","0","49","","false","400","",""
"null","<div style='font-size:40px'>+</div>","null","html-keyboard-response","29","23840","0.0-9.0-0.4","","","","","","","","","","","","","","","","",""
"244","
            <div class='image-container'>
                <img class='stimuli-left' src='stim/avatar/0/red.png'>
                <img class='stimuli-middle' src='stim/avatar/0/blue.png'>
                <img class='stimuli-right' src='stim/avatar/0/black.png'>
            </div>","1","html-keyboard-response","30","24086","0.0-9.0-1.4","","","","","","","","","","","","","","","","",""
"244","
                <div class='image-container'>
                    <img class='stimuli-left' src='stim/outcome/scaled_win.jpg'>
                    <img class='stimuli-middle' src='stim/avatar/0/blue.png'>
                    <img class='stimuli-right' src='stim/avatar/0/black.png'>
                </div>","1","html-keyboard-response","31","25090","0.0-9.0-2.4","333","02/20/2024","","sabotage","easy-hard","2","9","5","[0.9,0.5,0.1]","5","0","49","","false","500","",""
"null","<div style='font-size:40px'>+</div>","null","html-keyboard-response","32","25591","0.0-9.0-0.5","","","","","","","","","","","","","","","","",""
"183","
            <div class='image-container'>
                <img class='stimuli-left' src='stim/avatar/0/red.png'>
                <img class='stimuli-middle' src='stim/avatar/0/blue.png'>
                <img class='stimuli-right' src='stim/avatar/0/black.png'>
            </div>","1","html-keyboard-response","33","25777","0.0-9.0-1.5","","","","","","","","","","","","","","","","",""
"183","
                <div class='image-container'>
                    <img class='stimuli-left' src='stim/outcome/scaled_win.jpg'>
                    <img class='stimuli-middle' src='stim/avatar/0/blue.png'>
                    <img class='stimuli-right' src='stim/avatar/0/black.png'>
                </div>","1","html-keyboard-response","34","26782","0.0-9.0-2.5","333","02/20/2024","","sabotage","easy-hard","2","9","6","[0.9,0.5,0.1]","6","0","49","","false","600","",""
"null","<div style='font-size:40px'>+</div>","null","html-keyboard-response","35","27284","0.0-9.0-0.6","","","","","","","","","","","","","","","","",""
"408","
            <div class='image-container'>
                <img class='stimuli-left' src='stim/avatar/0/red.png'>
                <img class='stimuli-middle' src='stim/avatar/0/blue.png'>
                <img class='stimuli-right' src='stim/avatar/0/black.png'>
            </div>","1","html-keyboard-response","36","27694","0.0-9.0-1.6","","","","","","","","","","","","","","","","",""
"408","
                <div class='image-container'>
                    <img class='stimuli-left' src='stim/outcome/scaled_win.jpg'>
                    <img class='stimuli-middle' src='stim/avatar/0/blue.png'>
                    <img class='stimuli-right' src='stim/avatar/0/black.png'>
                </div>","1","html-keyboard-response","37","28698","0.0-9.0-2.6","333","02/20/2024","","sabotage","easy-hard","2","9","7","[0.9,0.5,0.1]","7","0","49","","false","700","",""
"null","<div style='font-size:40px'>+</div>","null","html-keyboard-response","38","29199","0.0-9.0-0.7","","","","","","","","","","","","","","","","",""
"261","
            <div class='image-container'>
                <img class='stimuli-left' src='stim/avatar/0/red.png'>
                <img class='stimuli-middle' src='stim/avatar/0/blue.png'>
                <img class='stimuli-right' src='stim/avatar/0/black.png'>
            </div>","1","html-keyboard-response","39","29462","0.0-9.0-1.7","","","","","","","","","","","","","","","","",""
"261","
                <div class='image-container'>
                    <img class='stimuli-left' src='stim/outcome/scaled_lose.jpg'>
                    <img class='stimuli-middle' src='stim/avatar/0/blue.png'>
                    <img class='stimuli-right' src='stim/avatar/0/black.png'>
                </div>","1","html-keyboard-response","40","30465","0.0-9.0-2.7","333","02/20/2024","","sabotage","easy-hard","2","9","8","[0.9,0.5,0.1]","8","0","49","","false","650","",""
"null","<div style='font-size:40px'>+</div>","null","html-keyboard-response","41","30967","0.0-9.0-0.8","","","","","","","","","","","","","","","","",""
"5513","
            <div class='image-container'>
                <img class='stimuli-left' src='stim/avatar/0/red.png'>
                <img class='stimuli-middle' src='stim/avatar/0/blue.png'>
                <img class='stimuli-right' src='stim/avatar/0/black.png'>
            </div>","1","html-keyboard-response","42","36482","0.0-9.0-1.8","","","","","","","","","","","","","","","","",""
"5513","
                <div class='image-container'>
                    <img class='stimuli-left' src='stim/outcome/scaled_win.jpg'>
                    <img class='stimuli-middle' src='stim/avatar/0/blue.png'>
                    <img class='stimuli-right' src='stim/avatar/0/black.png'>
                </div>","1","html-keyboard-response","43","37486","0.0-9.0-2.8","333","02/20/2024","","sabotage","easy-hard","2","9","9","[0.9,0.5,0.1]","0","0","49","","false","750","",""
"null","<div style='font-size:40px'>+</div>","null","html-keyboard-response","44","37987","0.0-9.0-0.9","","","","","","","","","","","","","","","","",""
"5572","
            <div class='image-container'>
                <img class='stimuli-left' src='stim/avatar/0/red.png'>
                <img class='stimuli-middle' src='stim/avatar/0/blue.png'>
                <img class='stimuli-right' src='stim/avatar/0/black.png'>
            </div>","1","html-keyboard-response","45","43562","0.0-9.0-1.9","","","","","","","","","","","","","","","","",""
"5572","
                <div class='image-container'>
                    <img class='stimuli-left' src='stim/outcome/scaled_win.jpg'>
                    <img class='stimuli-middle' src='stim/avatar/0/blue.png'>
                    <img class='stimuli-right' src='stim/avatar/0/black.png'>
                </div>","1","html-keyboard-response","46","44566","0.0-9.0-2.9","333","02/20/2024","","sabotage","easy-hard","2","9","10","[0.9,0.5,0.1]","0","1","49","","false","850","",""
"null","<div style='font-size:40px'>+</div>","null","html-keyboard-response","47","45067","0.0-9.0-0.10","","","","","","","","","","","","","","","","",""
"910","
            <div class='image-container'>
                <img class='stimuli-left' src='stim/avatar/0/red.png'>
                <img class='stimuli-middle' src='stim/avatar/0/blue.png'>
                <img class='stimuli-right' src='stim/avatar/0/black.png'>
            </div>","1","html-keyboard-response","48","45979","0.0-9.0-1.10","","","","","","","","","","","","","","","","",""
"910","
                <div class='image-container'>
                    <img class='stimuli-left' src='stim/outcome/scaled_win.jpg'>
                    <img class='stimuli-middle' src='stim/avatar/0/blue.png'>
                    <img class='stimuli-right' src='stim/avatar/0/black.png'>
                </div>","1","html-keyboard-response","49","46983","0.0-9.0-2.10","333","02/20/2024","","sabotage","easy-hard","2","9","11","[0.9,0.5,0.1]","0","2","49","","false","950","",""
"null","<div style='font-size:40px'>+</div>","null","html-keyboard-response","50","47485","0.0-9.0-0.11","","","","","","","","","","","","","","","","",""
"199","
            <div class='image-container'>
                <img class='stimuli-left' src='stim/avatar/0/red.png'>
                <img class='stimuli-middle' src='stim/avatar/0/blue.png'>
                <img class='stimuli-right' src='stim/avatar/0/black.png'>
            </div>","1","html-keyboard-response","51","47686","0.0-9.0-1.11","","","","","","","","","","","","","","","","",""
"199","
                <div class='image-container'>
                    <img class='stimuli-left' src='stim/outcome/scaled_lose.jpg'>
                    <img class='stimuli-middle' src='stim/avatar/0/blue.png'>
                    <img class='stimuli-right' src='stim/avatar/0/black.png'>
                </div>","1","html-keyboard-response","52","48690","0.0-9.0-2.11","333","02/20/2024","","sabotage","easy-hard","2","9","12","[0.9,0.5,0.1]","0","0","49","","false","900","",""
"null","<div style='font-size:40px'>+</div>","null","html-keyboard-response","53","49191","0.0-9.0-0.12","","","","","","","","","","","","","","","","",""
"509","
            <div class='image-container'>
                <img class='stimuli-left' src='stim/avatar/0/red.png'>
                <img class='stimuli-middle' src='stim/avatar/0/blue.png'>
                <img class='stimuli-right' src='stim/avatar/0/black.png'>
            </div>","2","html-keyboard-response","54","49953","0.0-9.0-1.12","","","","","","","","","","","","","","","","",""
"509","
                <div class='image-container'>
                    <img class='stimuli-left' src='stim/avatar/0/red.png'>
                    <img class='stimuli-middle' src='stim/outcome/scaled_win.jpg'>
                    <img class='stimuli-right' src='stim/avatar/0/black.png'>
                </div>","2","html-keyboard-response","55","50958","0.0-9.0-2.12","333","02/20/2024","","sabotage","easy-hard","2","9","13","[0.9,0.5,0.1]","1","0","50","","false","1000","",""
"null","<div style='font-size:40px'>+</div>","null","html-keyboard-response","56","51460","0.0-9.0-0.13","","","","","","","","","","","","","","","","",""
"155","
            <div class='image-container'>
                <img class='stimuli-left' src='stim/avatar/0/red.png'>
                <img class='stimuli-middle' src='stim/avatar/0/blue.png'>
                <img class='stimuli-right' src='stim/avatar/0/black.png'>
            </div>","2","html-keyboard-response","57","51618","0.0-9.0-1.13","","","","","","","","","","","","","","","","",""
"155","
                <div class='image-container'>
                    <img class='stimuli-left' src='stim/avatar/0/red.png'>
                    <img class='stimuli-middle' src='stim/outcome/scaled_win.jpg'>
                    <img class='stimuli-right' src='stim/avatar/0/black.png'>
                </div>","2","html-keyboard-response","58","52622","0.0-9.0-2.13","333","02/20/2024","","sabotage","easy-hard","2","9","14","[0.9,0.5,0.1]","2","0","50","","false","1100","",""
"null","<div style='font-size:40px'>+</div>","null","html-keyboard-response","59","53124","0.0-9.0-0.14","","","","","","","","","","","","","","","","",""
"372","
            <div class='image-container'>
                <img class='stimuli-left' src='stim/avatar/0/red.png'>
                <img class='stimuli-middle' src='stim/avatar/0/blue.png'>
                <img class='stimuli-right' src='stim/avatar/0/black.png'>
            </div>","2","html-keyboard-response","60","53498","0.0-9.0-1.14","","","","","","","","","","","","","","","","",""
"372","
                <div class='image-container'>
                    <img class='stimuli-left' src='stim/avatar/0/red.png'>
                    <img class='stimuli-middle' src='stim/outcome/scaled_win.jpg'>
                    <img class='stimuli-right' src='stim/avatar/0/black.png'>
                </div>","2","html-keyboard-response","61","54501","0.0-9.0-2.14","333","02/20/2024","","sabotage","easy-hard","2","9","15","[0.9,0.5,0.1]","3","0","50","","false","1200","",""
"null","<div style='font-size:40px'>+</div>","null","html-keyboard-response","62","55003","0.0-9.0-0.15","","","","","","","","","","","","","","","","",""
"171","
            <div class='image-container'>
                <img class='stimuli-left' src='stim/avatar/0/red.png'>
                <img class='stimuli-middle' src='stim/avatar/0/blue.png'>
                <img class='stimuli-right' src='stim/avatar/0/black.png'>
            </div>","2","html-keyboard-response","63","55175","0.0-9.0-1.15","","","","","","","","","","","","","","","","",""
"171","
                <div class='image-container'>
                    <img class='stimuli-left' src='stim/avatar/0/red.png'>
                    <img class='stimuli-middle' src='stim/outcome/scaled_win.jpg'>
                    <img class='stimuli-right' src='stim/avatar/0/black.png'>
                </div>","2","html-keyboard-response","64","56177","0.0-9.0-2.15","333","02/20/2024","","sabotage","easy-hard","2","9","16","[0.9,0.5,0.1]","4","0","50","","false","1300","",""
"null","<div style='font-size:40px'>+</div>","null","html-keyboard-response","65","56679","0.0-9.0-0.16","","","","","","","","","","","","","","","","",""
"189","
            <div class='image-container'>
                <img class='stimuli-left' src='stim/avatar/0/red.png'>
                <img class='stimuli-middle' src='stim/avatar/0/blue.png'>
                <img class='stimuli-right' src='stim/avatar/0/black.png'>
            </div>","2","html-keyboard-response","66","56870","0.0-9.0-1.16","","","","","","","","","","","","","","","","",""
"189","
                <div class='image-container'>
                    <img class='stimuli-left' src='stim/avatar/0/red.png'>
                    <img class='stimuli-middle' src='stim/outcome/scaled_win.jpg'>
                    <img class='stimuli-right' src='stim/avatar/0/black.png'>
                </div>","2","html-keyboard-response","67","57874","0.0-9.0-2.16","333","02/20/2024","","sabotage","easy-hard","2","9","17","[0.9,0.5,0.1]","5","0","50","","false","1400","",""
"null","<div style='font-size:40px'>+</div>","null","html-keyboard-response","68","58376","0.0-9.0-0.17","","","","","","","","","","","","","","","","",""
"195","
            <div class='image-container'>
                <img class='stimuli-left' src='stim/avatar/0/red.png'>
                <img class='stimuli-middle' src='stim/avatar/0/blue.png'>
                <img class='stimuli-right' src='stim/avatar/0/black.png'>
            </div>","2","html-keyboard-response","69","58572","0.0-9.0-1.17","","","","","","","","","","","","","","","","",""
"195","
                <div class='image-container'>
                    <img class='stimuli-left' src='stim/avatar/0/red.png'>
                    <img class='stimuli-middle' src='stim/outcome/scaled_win.jpg'>
                    <img class='stimuli-right' src='stim/avatar/0/black.png'>
                </div>","2","html-keyboard-response","70","59576","0.0-9.0-2.17","333","02/20/2024","","sabotage","easy-hard","2","9","18","[0.9,0.5,0.1]","6","0","50","","false","1500","",""
"null","<div style='font-size:40px'>+</div>","null","html-keyboard-response","71","60078","0.0-9.0-0.18","","","","","","","","","","","","","","","","",""
"324","
            <div class='image-container'>
                <img class='stimuli-left' src='stim/avatar/0/red.png'>
                <img class='stimuli-middle' src='stim/avatar/0/blue.png'>
                <img class='stimuli-right' src='stim/avatar/0/black.png'>
            </div>","2","html-keyboard-response","72","60686","0.0-9.0-1.18","","","","","","","","","","","","","","","","",""
"324","
                <div class='image-container'>
                    <img class='stimuli-left' src='stim/avatar/0/red.png'>
                    <img class='stimuli-middle' src='stim/outcome/scaled_win.jpg'>
                    <img class='stimuli-right' src='stim/avatar/0/black.png'>
                </div>","2","html-keyboard-response","73","61690","0.0-9.0-2.18","333","02/20/2024","","sabotage","easy-hard","2","9","19","[0.9,0.5,0.1]","7","0","50","","false","1600","",""
"null","<div style='font-size:40px'>+</div>","null","html-keyboard-response","74","62191","0.0-9.0-0.19","","","","","","","","","","","","","","","","",""
"332","
            <div class='image-container'>
                <img class='stimuli-left' src='stim/avatar/0/red.png'>
                <img class='stimuli-middle' src='stim/avatar/0/blue.png'>
                <img class='stimuli-right' src='stim/avatar/0/black.png'>
            </div>","2","html-keyboard-response","75","62525","0.0-9.0-1.19","","","","","","","","","","","","","","","","",""
"332","
                <div class='image-container'>
                    <img class='stimuli-left' src='stim/avatar/0/red.png'>
                    <img class='stimuli-middle' src='stim/outcome/scaled_win.jpg'>
                    <img class='stimuli-right' src='stim/avatar/0/black.png'>
                </div>","2","html-keyboard-response","76","63528","0.0-9.0-2.19","333","02/20/2024","","sabotage","easy-hard","2","9","20","[0.9,0.5,0.1]","8","0","50","","false","1700","",""
"null","<div style='font-size:40px'>+</div>","null","html-keyboard-response","77","64029","0.0-9.0-0.20","","","","","","","","","","","","","","","","",""
"236","
            <div class='image-container'>
                <img class='stimuli-left' src='stim/avatar/0/red.png'>
                <img class='stimuli-middle' src='stim/avatar/0/blue.png'>
                <img class='stimuli-right' src='stim/avatar/0/black.png'>
            </div>","2","html-keyboard-response","78","64268","0.0-9.0-1.20","","","","","","","","","","","","","","","","",""
"236","
                <div class='image-container'>
                    <img class='stimuli-left' src='stim/avatar/0/red.png'>
                    <img class='stimuli-middle' src='stim/outcome/scaled_lose.jpg'>
                    <img class='stimuli-right' src='stim/avatar/0/black.png'>
                </div>","2","html-keyboard-response","79","65271","0.0-9.0-2.20","333","02/20/2024","","sabotage","easy-hard","2","9","21","[0.9,0.5,0.1]","0","0","50","","false","1650","",""
"null","<div style='font-size:40px'>+</div>","null","html-keyboard-response","80","65773","0.0-9.0-0.21","","","","","","","","","","","","","","","","",""
"154","
            <div class='image-container'>
                <img class='stimuli-left' src='stim/avatar/0/red.png'>
                <img class='stimuli-middle' src='stim/avatar/0/blue.png'>
                <img class='stimuli-right' src='stim/avatar/0/black.png'>
            </div>","2","html-keyboard-response","81","65929","0.0-9.0-1.21","","","","","","","","","","","","","","","","",""
"154","
                <div class='image-container'>
                    <img class='stimuli-left' src='stim/avatar/0/red.png'>
                    <img class='stimuli-middle' src='stim/outcome/scaled_lose.jpg'>
                    <img class='stimuli-right' src='stim/avatar/0/black.png'>
                </div>","2","html-keyboard-response","82","66933","0.0-9.0-2.21","333","02/20/2024","","sabotage","easy-hard","2","9","22","[0.9,0.5,0.1]","0","1","50","","false","1600","",""
"null","<div style='font-size:40px'>+</div>","null","html-keyboard-response","83","67434","0.0-9.0-0.22","","","","","","","","","","","","","","","","",""
"272","
            <div class='image-container'>
                <img class='stimuli-left' src='stim/avatar/0/red.png'>
                <img class='stimuli-middle' src='stim/avatar/0/blue.png'>
                <img class='stimuli-right' src='stim/avatar/0/black.png'>
            </div>","3","html-keyboard-response","84","67708","0.0-9.0-1.22","","","","","","","","","","","","","","","","",""
"272","
                <div class='image-container'>
                    <img class='stimuli-left' src='stim/avatar/0/red.png'>
                    <img class='stimuli-middle' src='stim/avatar/0/blue.png'>
                    <img class='stimuli-right' src='stim/outcome/scaled_lose.jpg'>
                </div>","3","html-keyboard-response","85","68712","0.0-9.0-2.22","333","02/20/2024","","sabotage","easy-hard","2","9","23","[0.9,0.5,0.1]","0","2","51","","false","1550","",""
"null","<div style='font-size:40px'>+</div>","null","html-keyboard-response","86","69214","0.0-9.0-0.23","","","","","","","","","","","","","","","","",""
"216","
            <div class='image-container'>
                <img class='stimuli-left' src='stim/avatar/0/red.png'>
                <img class='stimuli-middle' src='stim/avatar/0/blue.png'>
                <img class='stimuli-right' src='stim/avatar/0/black.png'>
            </div>","1","html-keyboard-response","87","69432","0.0-9.0-1.23","","","","","","","","","","","","","","","","",""
"216","
                <div class='image-container'>
                    <img class='stimuli-left' src='stim/outcome/scaled_win.jpg'>
                    <img class='stimuli-middle' src='stim/avatar/0/blue.png'>
                    <img class='stimuli-right' src='stim/avatar/0/black.png'>
                </div>","1","html-keyboard-response","88","70435","0.0-9.0-2.23","333","02/20/2024","","sabotage","easy-hard","2","9","24","[0.9,0.5,0.1]","1","2","49","","false","1650","",""
"null","<div style='font-size:40px'>+</div>","null","html-keyboard-response","89","70937","0.0-9.0-0.24","","","","","","","","","","","","","","","","",""
"336","
            <div class='image-container'>
                <img class='stimuli-left' src='stim/avatar/0/red.png'>
                <img class='stimuli-middle' src='stim/avatar/0/blue.png'>
                <img class='stimuli-right' src='stim/avatar/0/black.png'>
            </div>","1","html-keyboard-response","90","71275","0.0-9.0-1.24","","","","","","","","","","","","","","","","",""
"336","
                <div class='image-container'>
                    <img class='stimuli-left' src='stim/outcome/scaled_win.jpg'>
                    <img class='stimuli-middle' src='stim/avatar/0/blue.png'>
                    <img class='stimuli-right' src='stim/avatar/0/black.png'>
                </div>","1","html-keyboard-response","91","72277","0.0-9.0-2.24","333","02/20/2024","","sabotage","easy-hard","2","9","25","[0.9,0.5,0.1]","2","2","49","","false","1750","",""
"null","<div style='font-size:40px'>+</div>","null","html-keyboard-response","92","72779","0.0-9.0-0.25","","","","","","","","","","","","","","","","",""
"221","
            <div class='image-container'>
                <img class='stimuli-left' src='stim/avatar/0/red.png'>
                <img class='stimuli-middle' src='stim/avatar/0/blue.png'>
                <img class='stimuli-right' src='stim/avatar/0/black.png'>
            </div>","1","html-keyboard-response","93","73002","0.0-9.0-1.25","","","","","","","","","","","","","","","","",""
"221","
                <div class='image-container'>
                    <img class='stimuli-left' src='stim/outcome/scaled_lose.jpg'>
                    <img class='stimuli-middle' src='stim/avatar/0/blue.png'>
                    <img class='stimuli-right' src='stim/avatar/0/black.png'>
                </div>","1","html-keyboard-response","94","74005","0.0-9.0-2.25","333","02/20/2024","","sabotage","easy-hard","2","9","26","[0.9,0.5,0.1]","3","2","49","","false","1700","",""
"null","<div style='font-size:40px'>+</div>","null","html-keyboard-response","95","74506","0.0-9.0-0.26","","","","","","","","","","","","","","","","",""
"178","
            <div class='image-container'>
                <img class='stimuli-left' src='stim/avatar/0/red.png'>
                <img class='stimuli-middle' src='stim/avatar/0/blue.png'>
                <img class='stimuli-right' src='stim/avatar/0/black.png'>
            </div>","3","html-keyboard-response","96","74687","0.0-9.0-1.26","","","","","","","","","","","","","","","","",""
"178","
                <div class='image-container'>
                    <img class='stimuli-left' src='stim/avatar/0/red.png'>
                    <img class='stimuli-middle' src='stim/avatar/0/blue.png'>
                    <img class='stimuli-right' src='stim/outcome/scaled_win.jpg'>
                </div>","3","html-keyboard-response","97","75691","0.0-9.0-2.26","333","02/20/2024","","sabotage","easy-hard","2","9","27","[0.9,0.5,0.1]","0","0","51","","false","1800","",""
"null","<div style='font-size:40px'>+</div>","null","html-keyboard-response","98","76193","0.0-9.0-0.27","","","","","","","","","","","","","","","","",""
"227","
            <div class='image-container'>
                <img class='stimuli-left' src='stim/avatar/0/red.png'>
                <img class='stimuli-middle' src='stim/avatar/0/blue.png'>
                <img class='stimuli-right' src='stim/avatar/0/black.png'>
            </div>","3","html-keyboard-response","99","76422","0.0-9.0-1.27","","","","","","","","","","","","","","","","",""
"227","
                <div class='image-container'>
                    <img class='stimuli-left' src='stim/avatar/0/red.png'>
                    <img class='stimuli-middle' src='stim/avatar/0/blue.png'>
                    <img class='stimuli-right' src='stim/outcome/scaled_win.jpg'>
                </div>","3","html-keyboard-response","100","77425","0.0-9.0-2.27","333","02/20/2024","","sabotage","easy-hard","2","9","28","[0.9,0.5,0.1]","0","1","51","","false","1900","",""
"null","<div style='font-size:40px'>+</div>","null","html-keyboard-response","101","77926","0.0-9.0-0.28","","","","","","","","","","","","","","","","",""
"277","
            <div class='image-container'>
                <img class='stimuli-left' src='stim/avatar/0/red.png'>
                <img class='stimuli-middle' src='stim/avatar/0/blue.png'>
                <img class='stimuli-right' src='stim/avatar/0/black.png'>
            </div>","3","html-keyboard-response","102","78205","0.0-9.0-1.28","","","","","","","","","","","","","","","","",""
"277","
                <div class='image-container'>
                    <img class='stimuli-left' src='stim/avatar/0/red.png'>
                    <img class='stimuli-middle' src='stim/avatar/0/blue.png'>
                    <img class='stimuli-right' src='stim/outcome/scaled_win.jpg'>
                </div>","3","html-keyboard-response","103","79209","0.0-9.0-2.28","333","02/20/2024","","sabotage","easy-hard","2","9","29","[0.9,0.5,0.1]","0","2","51","","false","2000","",""
"null","<div style='font-size:40px'>+</div>","null","html-keyboard-response","104","79710","0.0-9.0-0.29","","","","","","","","","","","","","","","","",""
"193","
            <div class='image-container'>
                <img class='stimuli-left' src='stim/avatar/0/red.png'>
                <img class='stimuli-middle' src='stim/avatar/0/blue.png'>
                <img class='stimuli-right' src='stim/avatar/0/black.png'>
            </div>","3","html-keyboard-response","105","79905","0.0-9.0-1.29","","","","","","","","","","","","","","","","",""
"193","
                <div class='image-container'>
                    <img class='stimuli-left' src='stim/avatar/0/red.png'>
                    <img class='stimuli-middle' src='stim/avatar/0/blue.png'>
                    <img class='stimuli-right' src='stim/outcome/scaled_win.jpg'>
                </div>","3","html-keyboard-response","106","80909","0.0-9.0-2.29","333","02/20/2024","","sabotage","easy-hard","2","9","30","[0.9,0.5,0.1]","0","0","51","","false","2100","",""
"null","<div style='font-size:40px'>+</div>","null","html-keyboard-response","107","81411","0.0-9.0-0.30","","","","","","","","","","","","","","","","",""
"165","
            <div class='image-container'>
                <img class='stimuli-left' src='stim/avatar/0/red.png'>
                <img class='stimuli-middle' src='stim/avatar/0/blue.png'>
                <img class='stimuli-right' src='stim/avatar/0/black.png'>
            </div>","3","html-keyboard-response","108","81578","0.0-9.0-1.30","","","","","","","","","","","","","","","","",""
"165","
                <div class='image-container'>
                    <img class='stimuli-left' src='stim/avatar/0/red.png'>
                    <img class='stimuli-middle' src='stim/avatar/0/blue.png'>
                    <img class='stimuli-right' src='stim/outcome/scaled_lose.jpg'>
                </div>","3","html-keyboard-response","109","82582","0.0-9.0-2.30","333","02/20/2024","","sabotage","easy-hard","2","9","31","[0.9,0.5,0.1]","0","1","51","","false","2050","",""
"null","<div style='font-size:40px'>+</div>","null","html-keyboard-response","110","83083","0.0-9.0-0.31","","","","","","","","","","","","","","","","",""
"249","
            <div class='image-container'>
                <img class='stimuli-left' src='stim/avatar/0/red.png'>
                <img class='stimuli-middle' src='stim/avatar/0/blue.png'>
                <img class='stimuli-right' src='stim/avatar/0/black.png'>
            </div>","2","html-keyboard-response","111","83335","0.0-9.0-1.31","","","","","","","","","","","","","","","","",""
"249","
                <div class='image-container'>
                    <img class='stimuli-left' src='stim/avatar/0/red.png'>
                    <img class='stimuli-middle' src='stim/outcome/scaled_lose.jpg'>
                    <img class='stimuli-right' src='stim/avatar/0/black.png'>
                </div>","2","html-keyboard-response","112","84338","0.0-9.0-2.31","333","02/20/2024","","sabotage","easy-hard","2","9","32","[0.9,0.5,0.1]","0","2","50","","false","2000","",""
"null","<div style='font-size:40px'>+</div>","null","html-keyboard-response","113","84840","0.0-9.0-0.32","","","","","","","","","","","","","","","","",""
"243","
            <div class='image-container'>
                <img class='stimuli-left' src='stim/avatar/0/red.png'>
                <img class='stimuli-middle' src='stim/avatar/0/blue.png'>
                <img class='stimuli-right' src='stim/avatar/0/black.png'>
            </div>","1","html-keyboard-response","114","85351","0.0-9.0-1.32","","","","","","","","","","","","","","","","",""
"243","
                <div class='image-container'>
                    <img class='stimuli-left' src='stim/outcome/scaled_win.jpg'>
                    <img class='stimuli-middle' src='stim/avatar/0/blue.png'>
                    <img class='stimuli-right' src='stim/avatar/0/black.png'>
                </div>","1","html-keyboard-response","115","86354","0.0-9.0-2.32","333","02/20/2024","","sabotage","easy-hard","2","9","33","[0.9,0.5,0.1]","1","2","49","","false","2100","",""
"null","<div style='font-size:40px'>+</div>","null","html-keyboard-response","116","86855","0.0-9.0-0.33","","","","","","","","","","","","","","","","",""
"310","
            <div class='image-container'>
                <img class='stimuli-left' src='stim/avatar/0/red.png'>
                <img class='stimuli-middle' src='stim/avatar/0/blue.png'>
                <img class='stimuli-right' src='stim/avatar/0/black.png'>
            </div>","1","html-keyboard-response","117","87168","0.0-9.0-1.33","","","","","","","","","","","","","","","","",""
"310","
                <div class='image-container'>
                    <img class='stimuli-left' src='stim/outcome/scaled_win.jpg'>
                    <img class='stimuli-middle' src='stim/avatar/0/blue.png'>
                    <img class='stimuli-right' src='stim/avatar/0/black.png'>
                </div>","1","html-keyboard-response","118","88172","0.0-9.0-2.33","333","02/20/2024","","sabotage","easy-hard","2","9","34","[0.9,0.5,0.1]","2","2","49","","false","2200","",""
"null","<div style='font-size:40px'>+</div>","null","html-keyboard-response","119","88674","0.0-9.0-0.34","","","","","","","","","","","","","","","","",""
"289","
            <div class='image-container'>
                <img class='stimuli-left' src='stim/avatar/0/red.png'>
                <img class='stimuli-middle' src='stim/avatar/0/blue.png'>
                <img class='stimuli-right' src='stim/avatar/0/black.png'>
            </div>","1","html-keyboard-response","120","88964","0.0-9.0-1.34","","","","","","","","","","","","","","","","",""
"289","
                <div class='image-container'>
                    <img class='stimuli-left' src='stim/outcome/scaled_lose.jpg'>
                    <img class='stimuli-middle' src='stim/avatar/0/blue.png'>
                    <img class='stimuli-right' src='stim/avatar/0/black.png'>
                </div>","1","html-keyboard-response","121","89968","0.0-9.0-2.34","333","02/20/2024","","sabotage","easy-hard","2","9","35","[0.9,0.5,0.1]","3","2","49","","false","2150","",""
"null","<div style='font-size:40px'>+</div>","null","html-keyboard-response","122","90470","0.0-9.0-0.35","","","","","","","","","","","","","","","","",""
"242","
            <div class='image-container'>
                <img class='stimuli-left' src='stim/avatar/0/red.png'>
                <img class='stimuli-middle' src='stim/avatar/0/blue.png'>
                <img class='stimuli-right' src='stim/avatar/0/black.png'>
            </div>","1","html-keyboard-response","123","90714","0.0-9.0-1.35","","","","","","","","","","","","","","","","",""
"242","
                <div class='image-container'>
                    <img class='stimuli-left' src='stim/outcome/scaled_win.jpg'>
                    <img class='stimuli-middle' src='stim/avatar/0/blue.png'>
                    <img class='stimuli-right' src='stim/avatar/0/black.png'>
                </div>","1","html-keyboard-response","124","91717","0.0-9.0-2.35","333","02/20/2024","","sabotage","easy-hard","2","9","36","[0.9,0.5,0.1]","4","2","49","","false","2250","",""
"null","<div style='font-size:40px'>+</div>","null","html-keyboard-response","125","92219","0.0-9.0-0.36","","","","","","","","","","","","","","","","",""
"431","
            <div class='image-container'>
                <img class='stimuli-left' src='stim/avatar/0/red.png'>
                <img class='stimuli-middle' src='stim/avatar/0/blue.png'>
                <img class='stimuli-right' src='stim/avatar/0/black.png'>
            </div>","1","html-keyboard-response","126","92652","0.0-9.0-1.36","","","","","","","","","","","","","","","","",""
"431","
                <div class='image-container'>
                    <img class='stimuli-left' src='stim/outcome/scaled_win.jpg'>
                    <img class='stimuli-middle' src='stim/avatar/0/blue.png'>
                    <img class='stimuli-right' src='stim/avatar/0/black.png'>
                </div>","1","html-keyboard-response","127","93656","0.0-9.0-2.36","333","02/20/2024","","sabotage","easy-hard","2","9","37","[0.9,0.5,0.1]","5","2","49","","false","2350","",""
"null","<div style='font-size:40px'>+</div>","null","html-keyboard-response","128","94158","0.0-9.0-0.37","","","","","","","","","","","","","","","","",""
"456","
            <div class='image-container'>
                <img class='stimuli-left' src='stim/avatar/0/red.png'>
                <img class='stimuli-middle' src='stim/avatar/0/blue.png'>
                <img class='stimuli-right' src='stim/avatar/0/black.png'>
            </div>","1","html-keyboard-response","129","94616","0.0-9.0-1.37","","","","","","","","","","","","","","","","",""
"456","
                <div class='image-container'>
                    <img class='stimuli-left' src='stim/outcome/scaled_win.jpg'>
                    <img class='stimuli-middle' src='stim/avatar/0/blue.png'>
                    <img class='stimuli-right' src='stim/avatar/0/black.png'>
                </div>","1","html-keyboard-response","130","95620","0.0-9.0-2.37","333","02/20/2024","","sabotage","easy-hard","2","9","38","[0.9,0.5,0.1]","6","2","49","","false","2450","",""
"null","<div style='font-size:40px'>+</div>","null","html-keyboard-response","131","96122","0.0-9.0-0.38","","","","","","","","","","","","","","","","",""
"329","
            <div class='image-container'>
                <img class='stimuli-left' src='stim/avatar/0/red.png'>
                <img class='stimuli-middle' src='stim/avatar/0/blue.png'>
                <img class='stimuli-right' src='stim/avatar/0/black.png'>
            </div>","1","html-keyboard-response","132","96453","0.0-9.0-1.38","","","","","","","","","","","","","","","","",""
"329","
                <div class='image-container'>
                    <img class='stimuli-left' src='stim/outcome/scaled_win.jpg'>
                    <img class='stimuli-middle' src='stim/avatar/0/blue.png'>
                    <img class='stimuli-right' src='stim/avatar/0/black.png'>
                </div>","1","html-keyboard-response","133","97456","0.0-9.0-2.38","333","02/20/2024","","sabotage","easy-hard","2","9","39","[0.9,0.5,0.1]","7","2","49","","false","2550","",""
"null","<div style='font-size:40px'>+</div>","null","html-keyboard-response","134","97958","0.0-9.0-0.39","","","","","","","","","","","","","","","","",""
"513","
            <div class='image-container'>
                <img class='stimuli-left' src='stim/avatar/0/red.png'>
                <img class='stimuli-middle' src='stim/avatar/0/blue.png'>
                <img class='stimuli-right' src='stim/avatar/0/black.png'>
            </div>","1","html-keyboard-response","135","98472","0.0-9.0-1.39","","","","","","","","","","","","","","","","",""
"513","
                <div class='image-container'>
                    <img class='stimuli-left' src='stim/outcome/scaled_win.jpg'>
                    <img class='stimuli-middle' src='stim/avatar/0/blue.png'>
                    <img class='stimuli-right' src='stim/avatar/0/black.png'>
                </div>","1","html-keyboard-response","136","99476","0.0-9.0-2.39","333","02/20/2024","","sabotage","easy-hard","2","9","40","[0.9,0.5,0.1]","8","2","49","","false","2650","",""
"1821","You are 25% done with the experiment. Please press the (0) key to proceed.","0","html-keyboard-response","137","101297","0.0-9.0-3.39-0.39","","","","","","","","","","","","","","","","",""
"null","<div style='font-size:40px'>+</div>","null","html-keyboard-response","138","101800","0.0-9.0-0.40","","","","","","","","","","","","","","","","",""
"344","
            <div class='image-container'>
                <img class='stimuli-left' src='stim/avatar/0/red.png'>
                <img class='stimuli-middle' src='stim/avatar/0/blue.png'>
                <img class='stimuli-right' src='stim/avatar/0/black.png'>
            </div>","3","html-keyboard-response","139","102146","0.0-9.0-1.40","","","","","","","","","","","","","","","","",""
"344","
                <div class='image-container'>
                    <img class='stimuli-left' src='stim/avatar/0/red.png'>
                    <img class='stimuli-middle' src='stim/avatar/0/blue.png'>
                    <img class='stimuli-right' src='stim/outcome/scaled_win.jpg'>
                </div>","3","html-keyboard-response","140","103149","0.0-9.0-2.40","333","02/20/2024","","sabotage","easy-hard","2","9","41","[0.9,0.5,0.1]","1","0","51","","true","2750","",""
"null","<div style='font-size:40px'>+</div>","null","html-keyboard-response","141","103649","0.0-9.0-0.41","","","","","","","","","","","","","","","","",""
"248","
            <div class='image-container'>
                <img class='stimuli-left' src='stim/avatar/0/red.png'>
                <img class='stimuli-middle' src='stim/avatar/0/blue.png'>
                <img class='stimuli-right' src='stim/avatar/0/black.png'>
            </div>","3","html-keyboard-response","142","103900","0.0-9.0-1.41","","","","","","","","","","","","","","","","",""
"248","
                <div class='image-container'>
                    <img class='stimuli-left' src='stim/avatar/0/red.png'>
                    <img class='stimuli-middle' src='stim/avatar/0/blue.png'>
                    <img class='stimuli-right' src='stim/outcome/scaled_win.jpg'>
                </div>","3","html-keyboard-response","143","104904","0.0-9.0-2.41","333","02/20/2024","","sabotage","easy-hard","2","9","42","[0.9,0.5,0.1]","2","0","51","","false","2850","",""
"null","<div style='font-size:40px'>+</div>","null","html-keyboard-response","144","105406","0.0-9.0-0.42","","","","","","","","","","","","","","","","",""
"279","
            <div class='image-container'>
                <img class='stimuli-left' src='stim/avatar/0/red.png'>
                <img class='stimuli-middle' src='stim/avatar/0/blue.png'>
                <img class='stimuli-right' src='stim/avatar/0/black.png'>
            </div>","3","html-keyboard-response","145","105687","0.0-9.0-1.42","","","","","","","","","","","","","","","","",""
"279","
                <div class='image-container'>
                    <img class='stimuli-left' src='stim/avatar/0/red.png'>
                    <img class='stimuli-middle' src='stim/avatar/0/blue.png'>
                    <img class='stimuli-right' src='stim/outcome/scaled_win.jpg'>
                </div>","3","html-keyboard-response","146","106690","0.0-9.0-2.42","333","02/20/2024","","sabotage","easy-hard","2","9","43","[0.9,0.5,0.1]","3","0","51","","false","2950","",""
"null","<div style='font-size:40px'>+</div>","null","html-keyboard-response","147","107192","0.0-9.0-0.43","","","","","","","","","","","","","","","","",""
"223","
            <div class='image-container'>
                <img class='stimuli-left' src='stim/avatar/0/red.png'>
                <img class='stimuli-middle' src='stim/avatar/0/blue.png'>
                <img class='stimuli-right' src='stim/avatar/0/black.png'>
            </div>","3","html-keyboard-response","148","107416","0.0-9.0-1.43","","","","","","","","","","","","","","","","",""
"223","
                <div class='image-container'>
                    <img class='stimuli-left' src='stim/avatar/0/red.png'>
                    <img class='stimuli-middle' src='stim/avatar/0/blue.png'>
                    <img class='stimuli-right' src='stim/outcome/scaled_win.jpg'>
                </div>","3","html-keyboard-response","149","108420","0.0-9.0-2.43","333","02/20/2024","","sabotage","easy-hard","2","9","44","[0.9,0.5,0.1]","4","0","51","","false","3050","",""
"null","<div style='font-size:40px'>+</div>","null","html-keyboard-response","150","108921","0.0-9.0-0.44","","","","","","","","","","","","","","","","",""
"203","
            <div class='image-container'>
                <img class='stimuli-left' src='stim/avatar/0/red.png'>
                <img class='stimuli-middle' src='stim/avatar/0/blue.png'>
                <img class='stimuli-right' src='stim/avatar/0/black.png'>
            </div>","3","html-keyboard-response","151","109126","0.0-9.0-1.44","","","","","","","","","","","","","","","","",""
"203","
                <div class='image-container'>
                    <img class='stimuli-left' src='stim/avatar/0/red.png'>
                    <img class='stimuli-middle' src='stim/avatar/0/blue.png'>
                    <img class='stimuli-right' src='stim/outcome/scaled_win.jpg'>
                </div>","3","html-keyboard-response","152","110130","0.0-9.0-2.44","333","02/20/2024","","sabotage","easy-hard","2","9","45","[0.9,0.5,0.1]","5","0","51","","false","3150","",""
"null","<div style='font-size:40px'>+</div>","null","html-keyboard-response","153","110632","0.0-9.0-0.45","","","","","","","","","","","","","","","","",""
"226","
            <div class='image-container'>
                <img class='stimuli-left' src='stim/avatar/0/red.png'>
                <img class='stimuli-middle' src='stim/avatar/0/blue.png'>
                <img class='stimuli-right' src='stim/avatar/0/black.png'>
            </div>","3","html-keyboard-response","154","110860","0.0-9.0-1.45","","","","","","","","","","","","","","","","",""
"226","
                <div class='image-container'>
                    <img class='stimuli-left' src='stim/avatar/0/red.png'>
                    <img class='stimuli-middle' src='stim/avatar/0/blue.png'>
                    <img class='stimuli-right' src='stim/outcome/scaled_win.jpg'>
                </div>","3","html-keyboard-response","155","111864","0.0-9.0-2.45","333","02/20/2024","","sabotage","easy-hard","2","9","46","[0.9,0.5,0.1]","6","0","51","","false","3250","",""
"null","<div style='font-size:40px'>+</div>","null","html-keyboard-response","156","112365","0.0-9.0-0.46","","","","","","","","","","","","","","","","",""
"211","
            <div class='image-container'>
                <img class='stimuli-left' src='stim/avatar/0/red.png'>
                <img class='stimuli-middle' src='stim/avatar/0/blue.png'>
                <img class='stimuli-right' src='stim/avatar/0/black.png'>
            </div>","3","html-keyboard-response","157","112578","0.0-9.0-1.46","","","","","","","","","","","","","","","","",""
"211","
                <div class='image-container'>
                    <img class='stimuli-left' src='stim/avatar/0/red.png'>
                    <img class='stimuli-middle' src='stim/avatar/0/blue.png'>
                    <img class='stimuli-right' src='stim/outcome/scaled_win.jpg'>
                </div>","3","html-keyboard-response","158","113581","0.0-9.0-2.46","333","02/20/2024","","sabotage","easy-hard","2","9","47","[0.9,0.5,0.1]","7","0","51","","false","3350","",""
"null","<div style='font-size:40px'>+</div>","null","html-keyboard-response","159","114083","0.0-9.0-0.47","","","","","","","","","","","","","","","","",""
"225","
            <div class='image-container'>
                <img class='stimuli-left' src='stim/avatar/0/red.png'>
                <img class='stimuli-middle' src='stim/avatar/0/blue.png'>
                <img class='stimuli-right' src='stim/avatar/0/black.png'>
            </div>","3","html-keyboard-response","160","114310","0.0-9.0-1.47","","","","","","","","","","","","","","","","",""
"225","
                <div class='image-container'>
                    <img class='stimuli-left' src='stim/avatar/0/red.png'>
                    <img class='stimuli-middle' src='stim/avatar/0/blue.png'>
                    <img class='stimuli-right' src='stim/outcome/scaled_win.jpg'>
                </div>","3","html-keyboard-response","161","115313","0.0-9.0-2.47","333","02/20/2024","","sabotage","easy-hard","2","9","48","[0.9,0.5,0.1]","8","0","51","","false","3450","",""
"null","<div style='font-size:40px'>+</div>","null","html-keyboard-response","162","115816","0.0-9.0-0.48","","","","","","","","","","","","","","","","",""
"210","
            <div class='image-container'>
                <img class='stimuli-left' src='stim/avatar/0/red.png'>
                <img class='stimuli-middle' src='stim/avatar/0/blue.png'>
                <img class='stimuli-right' src='stim/avatar/0/black.png'>
            </div>","3","html-keyboard-response","163","116029","0.0-9.0-1.48","","","","","","","","","","","","","","","","",""
"210","
                <div class='image-container'>
                    <img class='stimuli-left' src='stim/avatar/0/red.png'>
                    <img class='stimuli-middle' src='stim/avatar/0/blue.png'>
                    <img class='stimuli-right' src='stim/outcome/scaled_lose.jpg'>
                </div>","3","html-keyboard-response","164","117032","0.0-9.0-2.48","333","02/20/2024","","sabotage","easy-hard","2","9","49","[0.9,0.5,0.1]","0","0","51","","false","3400","",""
"null","<div style='font-size:40px'>+</div>","null","html-keyboard-response","165","117533","0.0-9.0-0.49","","","","","","","","","","","","","","","","",""
"187","
            <div class='image-container'>
                <img class='stimuli-left' src='stim/avatar/0/red.png'>
                <img class='stimuli-middle' src='stim/avatar/0/blue.png'>
                <img class='stimuli-right' src='stim/avatar/0/black.png'>
            </div>","2","html-keyboard-response","166","117723","0.0-9.0-1.49","","","","","","","","","","","","","","","","",""
"187","
                <div class='image-container'>
                    <img class='stimuli-left' src='stim/avatar/0/red.png'>
                    <img class='stimuli-middle' src='stim/outcome/scaled_win.jpg'>
                    <img class='stimuli-right' src='stim/avatar/0/black.png'>
                </div>","2","html-keyboard-response","167","118727","0.0-9.0-2.49","333","02/20/2024","","sabotage","easy-hard","2","9","50","[0.9,0.5,0.1]","1","0","50","","false","3500","",""
"null","<div style='font-size:40px'>+</div>","null","html-keyboard-response","168","119229","0.0-9.0-0.50","","","","","","","","","","","","","","","","",""
"188","
            <div class='image-container'>
                <img class='stimuli-left' src='stim/avatar/0/red.png'>
                <img class='stimuli-middle' src='stim/avatar/0/blue.png'>
                <img class='stimuli-right' src='stim/avatar/0/black.png'>
            </div>","2","html-keyboard-response","169","119419","0.0-9.0-1.50","","","","","","","","","","","","","","","","",""
"188","
                <div class='image-container'>
                    <img class='stimuli-left' src='stim/avatar/0/red.png'>
                    <img class='stimuli-middle' src='stim/outcome/scaled_lose.jpg'>
                    <img class='stimuli-right' src='stim/avatar/0/black.png'>
                </div>","2","html-keyboard-response","170","120423","0.0-9.0-2.50","333","02/20/2024","","sabotage","easy-hard","2","9","51","[0.9,0.5,0.1]","2","0","50","","false","3450","",""
"null","<div style='font-size:40px'>+</div>","null","html-keyboard-response","171","120924","0.0-9.0-0.51","","","","","","","","","","","","","","","","",""
"220","
            <div class='image-container'>
                <img class='stimuli-left' src='stim/avatar/0/red.png'>
                <img class='stimuli-middle' src='stim/avatar/0/blue.png'>
                <img class='stimuli-right' src='stim/avatar/0/black.png'>
            </div>","1","html-keyboard-response","172","121147","0.0-9.0-1.51","","","","","","","","","","","","","","","","",""
"220","
                <div class='image-container'>
                    <img class='stimuli-left' src='stim/outcome/scaled_lose.jpg'>
                    <img class='stimuli-middle' src='stim/avatar/0/blue.png'>
                    <img class='stimuli-right' src='stim/avatar/0/black.png'>
                </div>","1","html-keyboard-response","173","122151","0.0-9.0-2.51","333","02/20/2024","","sabotage","easy-hard","2","9","52","[0.9,0.5,0.1]","2","1","49","","false","3400","",""
"null","<div style='font-size:40px'>+</div>","null","html-keyboard-response","174","122653","0.0-9.0-0.52","","","","","","","","","","","","","","","","",""
"241","
            <div class='image-container'>
                <img class='stimuli-left' src='stim/avatar/0/red.png'>
                <img class='stimuli-middle' src='stim/avatar/0/blue.png'>
                <img class='stimuli-right' src='stim/avatar/0/black.png'>
            </div>","3","html-keyboard-response","175","122895","0.0-9.0-1.52","","","","","","","","","","","","","","","","",""
"241","
                <div class='image-container'>
                    <img class='stimuli-left' src='stim/avatar/0/red.png'>
                    <img class='stimuli-middle' src='stim/avatar/0/blue.png'>
                    <img class='stimuli-right' src='stim/outcome/scaled_win.jpg'>
                </div>","3","html-keyboard-response","176","123898","0.0-9.0-2.52","333","02/20/2024","","sabotage","easy-hard","2","9","53","[0.9,0.5,0.1]","2","2","51","","false","3500","",""
"null","<div style='font-size:40px'>+</div>","null","html-keyboard-response","177","124400","0.0-9.0-0.53","","","","","","","","","","","","","","","","",""
"326","
            <div class='image-container'>
                <img class='stimuli-left' src='stim/avatar/0/red.png'>
                <img class='stimuli-middle' src='stim/avatar/0/blue.png'>
                <img class='stimuli-right' src='stim/avatar/0/black.png'>
            </div>","3","html-keyboard-response","178","124729","0.0-9.0-1.53","","","","","","","","","","","","","","","","",""
"326","
                <div class='image-container'>
                    <img class='stimuli-left' src='stim/avatar/0/red.png'>
                    <img class='stimuli-middle' src='stim/avatar/0/blue.png'>
                    <img class='stimuli-right' src='stim/outcome/scaled_win.jpg'>
                </div>","3","html-keyboard-response","179","125732","0.0-9.0-2.53","333","02/20/2024","","sabotage","easy-hard","2","9","54","[0.9,0.5,0.1]","0","0","51","","false","3600","",""
"null","<div style='font-size:40px'>+</div>","null","html-keyboard-response","180","126233","0.0-9.0-0.54","","","","","","","","","","","","","","","","",""
"216","
            <div class='image-container'>
                <img class='stimuli-left' src='stim/avatar/0/red.png'>
                <img class='stimuli-middle' src='stim/avatar/0/blue.png'>
                <img class='stimuli-right' src='stim/avatar/0/black.png'>
            </div>","3","html-keyboard-response","181","126452","0.0-9.0-1.54","","","","","","","","","","","","","","","","",""
"216","
                <div class='image-container'>
                    <img class='stimuli-left' src='stim/avatar/0/red.png'>
                    <img class='stimuli-middle' src='stim/avatar/0/blue.png'>
                    <img class='stimuli-right' src='stim/outcome/scaled_win.jpg'>
                </div>","3","html-keyboard-response","182","127456","0.0-9.0-2.54","333","02/20/2024","","sabotage","easy-hard","2","9","55","[0.9,0.5,0.1]","0","1","51","","false","3700","",""
"null","<div style='font-size:40px'>+</div>","null","html-keyboard-response","183","127957","0.0-9.0-0.55","","","","","","","","","","","","","","","","",""
"269","
            <div class='image-container'>
                <img class='stimuli-left' src='stim/avatar/0/red.png'>
                <img class='stimuli-middle' src='stim/avatar/0/blue.png'>
                <img class='stimuli-right' src='stim/avatar/0/black.png'>
            </div>","3","html-keyboard-response","184","128229","0.0-9.0-1.55","","","","","","","","","","","","","","","","",""
"269","
                <div class='image-container'>
                    <img class='stimuli-left' src='stim/avatar/0/red.png'>
                    <img class='stimuli-middle' src='stim/avatar/0/blue.png'>
                    <img class='stimuli-right' src='stim/outcome/scaled_lose.jpg'>
                </div>","3","html-keyboard-response","185","129232","0.0-9.0-2.55","333","02/20/2024","","sabotage","easy-hard","2","9","56","[0.9,0.5,0.1]","0","2","51","","false","3650","",""
"null","<div style='font-size:40px'>+</div>","null","html-keyboard-response","186","129734","0.0-9.0-0.56","","","","","","","","","","","","","","","","",""
"286","
            <div class='image-container'>
                <img class='stimuli-left' src='stim/avatar/0/red.png'>
                <img class='stimuli-middle' src='stim/avatar/0/blue.png'>
                <img class='stimuli-right' src='stim/avatar/0/black.png'>
            </div>","2","html-keyboard-response","187","130022","0.0-9.0-1.56","","","","","","","","","","","","","","","","",""
"286","
                <div class='image-container'>
                    <img class='stimuli-left' src='stim/avatar/0/red.png'>
                    <img class='stimuli-middle' src='stim/outcome/scaled_win.jpg'>
                    <img class='stimuli-right' src='stim/avatar/0/black.png'>
                </div>","2","html-keyboard-response","188","131025","0.0-9.0-2.56","333","02/20/2024","","sabotage","easy-hard","2","9","57","[0.9,0.5,0.1]","1","2","50","","false","3750","",""
"null","<div style='font-size:40px'>+</div>","null","html-keyboard-response","189","131527","0.0-9.0-0.57","","","","","","","","","","","","","","","","",""
"214","
            <div class='image-container'>
                <img class='stimuli-left' src='stim/avatar/0/red.png'>
                <img class='stimuli-middle' src='stim/avatar/0/blue.png'>
                <img class='stimuli-right' src='stim/avatar/0/black.png'>
            </div>","2","html-keyboard-response","190","131743","0.0-9.0-1.57","","","","","","","","","","","","","","","","",""
"214","
                <div class='image-container'>
                    <img class='stimuli-left' src='stim/avatar/0/red.png'>
                    <img class='stimuli-middle' src='stim/outcome/scaled_win.jpg'>
                    <img class='stimuli-right' src='stim/avatar/0/black.png'>
                </div>","2","html-keyboard-response","191","132747","0.0-9.0-2.57","333","02/20/2024","","sabotage","easy-hard","2","9","58","[0.9,0.5,0.1]","2","2","50","","false","3850","",""
"null","<div style='font-size:40px'>+</div>","null","html-keyboard-response","192","133248","0.0-9.0-0.58","","","","","","","","","","","","","","","","",""
"220","
            <div class='image-container'>
                <img class='stimuli-left' src='stim/avatar/0/red.png'>
                <img class='stimuli-middle' src='stim/avatar/0/blue.png'>
                <img class='stimuli-right' src='stim/avatar/0/black.png'>
            </div>","2","html-keyboard-response","193","133471","0.0-9.0-1.58","","","","","","","","","","","","","","","","",""
"220","
                <div class='image-container'>
                    <img class='stimuli-left' src='stim/avatar/0/red.png'>
                    <img class='stimuli-middle' src='stim/outcome/scaled_win.jpg'>
                    <img class='stimuli-right' src='stim/avatar/0/black.png'>
                </div>","2","html-keyboard-response","194","134475","0.0-9.0-2.58","333","02/20/2024","","sabotage","easy-hard","2","9","59","[0.9,0.5,0.1]","3","2","50","","false","3950","",""
"null","<div style='font-size:40px'>+</div>","null","html-keyboard-response","195","134977","0.0-9.0-0.59","","","","","","","","","","","","","","","","",""
"150","
            <div class='image-container'>
                <img class='stimuli-left' src='stim/avatar/0/red.png'>
                <img class='stimuli-middle' src='stim/avatar/0/blue.png'>
                <img class='stimuli-right' src='stim/avatar/0/black.png'>
            </div>","2","html-keyboard-response","196","135129","0.0-9.0-1.59","","","","","","","","","","","","","","","","",""
"150","
                <div class='image-container'>
                    <img class='stimuli-left' src='stim/avatar/0/red.png'>
                    <img class='stimuli-middle' src='stim/outcome/scaled_win.jpg'>
                    <img class='stimuli-right' src='stim/avatar/0/black.png'>
                </div>","2","html-keyboard-response","197","136133","0.0-9.0-2.59","333","02/20/2024","","sabotage","easy-hard","2","9","60","[0.9,0.5,0.1]","4","2","50","","false","4050","",""
"null","<div style='font-size:40px'>+</div>","null","html-keyboard-response","198","136634","0.0-9.0-0.60","","","","","","","","","","","","","","","","",""
"223","
            <div class='image-container'>
                <img class='stimuli-left' src='stim/avatar/0/red.png'>
                <img class='stimuli-middle' src='stim/avatar/0/blue.png'>
                <img class='stimuli-right' src='stim/avatar/0/black.png'>
            </div>","2","html-keyboard-response","199","136859","0.0-9.0-1.60","","","","","","","","","","","","","","","","",""
"223","
                <div class='image-container'>
                    <img class='stimuli-left' src='stim/avatar/0/red.png'>
                    <img class='stimuli-middle' src='stim/outcome/scaled_win.jpg'>
                    <img class='stimuli-right' src='stim/avatar/0/black.png'>
                </div>","2","html-keyboard-response","200","137863","0.0-9.0-2.60","333","02/20/2024","","sabotage","easy-hard","2","9","61","[0.9,0.5,0.1]","5","2","50","","false","4150","",""
"null","<div style='font-size:40px'>+</div>","null","html-keyboard-response","201","138366","0.0-9.0-0.61","","","","","","","","","","","","","","","","",""
"213","
            <div class='image-container'>
                <img class='stimuli-left' src='stim/avatar/0/red.png'>
                <img class='stimuli-middle' src='stim/avatar/0/blue.png'>
                <img class='stimuli-right' src='stim/avatar/0/black.png'>
            </div>","2","html-keyboard-response","202","138581","0.0-9.0-1.61","","","","","","","","","","","","","","","","",""
"213","
                <div class='image-container'>
                    <img class='stimuli-left' src='stim/avatar/0/red.png'>
                    <img class='stimuli-middle' src='stim/outcome/scaled_win.jpg'>
                    <img class='stimuli-right' src='stim/avatar/0/black.png'>
                </div>","2","html-keyboard-response","203","139584","0.0-9.0-2.61","333","02/20/2024","","sabotage","easy-hard","2","9","62","[0.9,0.5,0.1]","6","2","50","","false","4250","",""
"null","<div style='font-size:40px'>+</div>","null","html-keyboard-response","204","140086","0.0-9.0-0.62","","","","","","","","","","","","","","","","",""
"204","
            <div class='image-container'>
                <img class='stimuli-left' src='stim/avatar/0/red.png'>
                <img class='stimuli-middle' src='stim/avatar/0/blue.png'>
                <img class='stimuli-right' src='stim/avatar/0/black.png'>
            </div>","2","html-keyboard-response","205","140292","0.0-9.0-1.62","","","","","","","","","","","","","","","","",""
"204","
                <div class='image-container'>
                    <img class='stimuli-left' src='stim/avatar/0/red.png'>
                    <img class='stimuli-middle' src='stim/outcome/scaled_win.jpg'>
                    <img class='stimuli-right' src='stim/avatar/0/black.png'>
                </div>","2","html-keyboard-response","206","141296","0.0-9.0-2.62","333","02/20/2024","","sabotage","easy-hard","2","9","63","[0.9,0.5,0.1]","7","2","50","","false","4350","",""
"null","<div style='font-size:40px'>+</div>","null","html-keyboard-response","207","141797","0.0-9.0-0.63","","","","","","","","","","","","","","","","",""
"608","
            <div class='image-container'>
                <img class='stimuli-left' src='stim/avatar/0/red.png'>
                <img class='stimuli-middle' src='stim/avatar/0/blue.png'>
                <img class='stimuli-right' src='stim/avatar/0/black.png'>
            </div>","2","html-keyboard-response","208","142662","0.0-9.0-1.63","","","","","","","","","","","","","","","","",""
"608","
                <div class='image-container'>
                    <img class='stimuli-left' src='stim/avatar/0/red.png'>
                    <img class='stimuli-middle' src='stim/outcome/scaled_win.jpg'>
                    <img class='stimuli-right' src='stim/avatar/0/black.png'>
                </div>","2","html-keyboard-response","209","143664","0.0-9.0-2.63","333","02/20/2024","","sabotage","easy-hard","2","9","64","[0.9,0.5,0.1]","8","2","50","","false","4450","",""
"null","<div style='font-size:40px'>+</div>","null","html-keyboard-response","210","144166","0.0-9.0-0.64","","","","","","","","","","","","","","","","",""
"252","
            <div class='image-container'>
                <img class='stimuli-left' src='stim/avatar/0/red.png'>
                <img class='stimuli-middle' src='stim/avatar/0/blue.png'>
                <img class='stimuli-right' src='stim/avatar/0/black.png'>
            </div>","2","html-keyboard-response","211","144421","0.0-9.0-1.64","","","","","","","","","","","","","","","","",""
"252","
                <div class='image-container'>
                    <img class='stimuli-left' src='stim/avatar/0/red.png'>
                    <img class='stimuli-middle' src='stim/outcome/scaled_win.jpg'>
                    <img class='stimuli-right' src='stim/avatar/0/black.png'>
                </div>","2","html-keyboard-response","212","145425","0.0-9.0-2.64","333","02/20/2024","","sabotage","easy-hard","2","9","65","[0.9,0.5,0.1]","0","0","50","","false","4550","",""
"null","<div style='font-size:40px'>+</div>","null","html-keyboard-response","213","145926","0.0-9.0-0.65","","","","","","","","","","","","","","","","",""
"221","
            <div class='image-container'>
                <img class='stimuli-left' src='stim/avatar/0/red.png'>
                <img class='stimuli-middle' src='stim/avatar/0/blue.png'>
                <img class='stimuli-right' src='stim/avatar/0/black.png'>
            </div>","2","html-keyboard-response","214","146149","0.0-9.0-1.65","","","","","","","","","","","","","","","","",""
"221","
                <div class='image-container'>
                    <img class='stimuli-left' src='stim/avatar/0/red.png'>
                    <img class='stimuli-middle' src='stim/outcome/scaled_win.jpg'>
                    <img class='stimuli-right' src='stim/avatar/0/black.png'>
                </div>","2","html-keyboard-response","215","147153","0.0-9.0-2.65","333","02/20/2024","","sabotage","easy-hard","2","9","66","[0.9,0.5,0.1]","0","1","50","","false","4650","",""
"null","<div style='font-size:40px'>+</div>","null","html-keyboard-response","216","147655","0.0-9.0-0.66","","","","","","","","","","","","","","","","",""
"189","
            <div class='image-container'>
                <img class='stimuli-left' src='stim/avatar/0/red.png'>
                <img class='stimuli-middle' src='stim/avatar/0/blue.png'>
                <img class='stimuli-right' src='stim/avatar/0/black.png'>
            </div>","2","html-keyboard-response","217","147846","0.0-9.0-1.66","","","","","","","","","","","","","","","","",""
"189","
                <div class='image-container'>
                    <img class='stimuli-left' src='stim/avatar/0/red.png'>
                    <img class='stimuli-middle' src='stim/outcome/scaled_lose.jpg'>
                    <img class='stimuli-right' src='stim/avatar/0/black.png'>
                </div>","2","html-keyboard-response","218","148850","0.0-9.0-2.66","333","02/20/2024","","sabotage","easy-hard","2","9","67","[0.9,0.5,0.1]","0","2","50","","false","4600","",""
"null","<div style='font-size:40px'>+</div>","null","html-keyboard-response","219","149352","0.0-9.0-0.67","","","","","","","","","","","","","","","","",""
"223","
            <div class='image-container'>
                <img class='stimuli-left' src='stim/avatar/0/red.png'>
                <img class='stimuli-middle' src='stim/avatar/0/blue.png'>
                <img class='stimuli-right' src='stim/avatar/0/black.png'>
            </div>","3","html-keyboard-response","220","149577","0.0-9.0-1.67","","","","","","","","","","","","","","","","",""
"223","
                <div class='image-container'>
                    <img class='stimuli-left' src='stim/avatar/0/red.png'>
                    <img class='stimuli-middle' src='stim/avatar/0/blue.png'>
                    <img class='stimuli-right' src='stim/outcome/scaled_win.jpg'>
                </div>","3","html-keyboard-response","221","150581","0.0-9.0-2.67","333","02/20/2024","","sabotage","easy-hard","2","9","68","[0.9,0.5,0.1]","1","2","51","","false","4700","",""
"null","<div style='font-size:40px'>+</div>","null","html-keyboard-response","222","151083","0.0-9.0-0.68","","","","","","","","","","","","","","","","",""
"218","
            <div class='image-container'>
                <img class='stimuli-left' src='stim/avatar/0/red.png'>
                <img class='stimuli-middle' src='stim/avatar/0/blue.png'>
                <img class='stimuli-right' src='stim/avatar/0/black.png'>
            </div>","1","html-keyboard-response","223","151303","0.0-9.0-1.68","","","","","","","","","","","","","","","","",""
"218","
                <div class='image-container'>
                    <img class='stimuli-left' src='stim/outcome/scaled_lose.jpg'>
                    <img class='stimuli-middle' src='stim/avatar/0/blue.png'>
                    <img class='stimuli-right' src='stim/avatar/0/black.png'>
                </div>","1","html-keyboard-response","224","152306","0.0-9.0-2.68","333","02/20/2024","","sabotage","easy-hard","2","9","69","[0.9,0.5,0.1]","0","0","49","","false","4650","",""
"null","<div style='font-size:40px'>+</div>","null","html-keyboard-response","225","152808","0.0-9.0-0.69","","","","","","","","","","","","","","","","",""
"237","
            <div class='image-container'>
                <img class='stimuli-left' src='stim/avatar/0/red.png'>
                <img class='stimuli-middle' src='stim/avatar/0/blue.png'>
                <img class='stimuli-right' src='stim/avatar/0/black.png'>
            </div>","3","html-keyboard-response","226","153047","0.0-9.0-1.69","","","","","","","","","","","","","","","","",""
"237","
                <div class='image-container'>
                    <img class='stimuli-left' src='stim/avatar/0/red.png'>
                    <img class='stimuli-middle' src='stim/avatar/0/blue.png'>
                    <img class='stimuli-right' src='stim/outcome/scaled_win.jpg'>
                </div>","3","html-keyboard-response","227","154052","0.0-9.0-2.69","333","02/20/2024","","sabotage","easy-hard","2","9","70","[0.9,0.5,0.1]","1","0","51","","false","4750","",""
"null","<div style='font-size:40px'>+</div>","null","html-keyboard-response","228","154553","0.0-9.0-0.70","","","","","","","","","","","","","","","","",""
"302","
            <div class='image-container'>
                <img class='stimuli-left' src='stim/avatar/0/red.png'>
                <img class='stimuli-middle' src='stim/avatar/0/blue.png'>
                <img class='stimuli-right' src='stim/avatar/0/black.png'>
            </div>","3","html-keyboard-response","229","154858","0.0-9.0-1.70","","","","","","","","","","","","","","","","",""
"302","
                <div class='image-container'>
                    <img class='stimuli-left' src='stim/avatar/0/red.png'>
                    <img class='stimuli-middle' src='stim/avatar/0/blue.png'>
                    <img class='stimuli-right' src='stim/outcome/scaled_win.jpg'>
                </div>","3","html-keyboard-response","230","155862","0.0-9.0-2.70","333","02/20/2024","","sabotage","easy-hard","2","9","71","[0.9,0.5,0.1]","2","0","51","","false","4850","",""
"null","<div style='font-size:40px'>+</div>","null","html-keyboard-response","231","156363","0.0-9.0-0.71","","","","","","","","","","","","","","","","",""
"231","
            <div class='image-container'>
                <img class='stimuli-left' src='stim/avatar/0/red.png'>
                <img class='stimuli-middle' src='stim/avatar/0/blue.png'>
                <img class='stimuli-right' src='stim/avatar/0/black.png'>
            </div>","3","html-keyboard-response","232","156596","0.0-9.0-1.71","","","","","","","","","","","","","","","","",""
"231","
                <div class='image-container'>
                    <img class='stimuli-left' src='stim/avatar/0/red.png'>
                    <img class='stimuli-middle' src='stim/avatar/0/blue.png'>
                    <img class='stimuli-right' src='stim/outcome/scaled_win.jpg'>
                </div>","3","html-keyboard-response","233","157600","0.0-9.0-2.71","333","02/20/2024","","sabotage","easy-hard","2","9","72","[0.9,0.5,0.1]","3","0","51","","false","4950","",""
"null","<div style='font-size:40px'>+</div>","null","html-keyboard-response","234","158102","0.0-9.0-0.72","","","","","","","","","","","","","","","","",""
"198","
            <div class='image-container'>
                <img class='stimuli-left' src='stim/avatar/0/red.png'>
                <img class='stimuli-middle' src='stim/avatar/0/blue.png'>
                <img class='stimuli-right' src='stim/avatar/0/black.png'>
            </div>","3","html-keyboard-response","235","158304","0.0-9.0-1.72","","","","","","","","","","","","","","","","",""
"198","
                <div class='image-container'>
                    <img class='stimuli-left' src='stim/avatar/0/red.png'>
                    <img class='stimuli-middle' src='stim/avatar/0/blue.png'>
                    <img class='stimuli-right' src='stim/outcome/scaled_win.jpg'>
                </div>","3","html-keyboard-response","236","159308","0.0-9.0-2.72","333","02/20/2024","","sabotage","easy-hard","2","9","73","[0.9,0.5,0.1]","4","0","51","","false","5050","",""
"null","<div style='font-size:40px'>+</div>","null","html-keyboard-response","237","159809","0.0-9.0-0.73","","","","","","","","","","","","","","","","",""
"237","
            <div class='image-container'>
                <img class='stimuli-left' src='stim/avatar/0/red.png'>
                <img class='stimuli-middle' src='stim/avatar/0/blue.png'>
                <img class='stimuli-right' src='stim/avatar/0/black.png'>
            </div>","3","html-keyboard-response","238","160049","0.0-9.0-1.73","","","","","","","","","","","","","","","","",""
"237","
                <div class='image-container'>
                    <img class='stimuli-left' src='stim/avatar/0/red.png'>
                    <img class='stimuli-middle' src='stim/avatar/0/blue.png'>
                    <img class='stimuli-right' src='stim/outcome/scaled_win.jpg'>
                </div>","3","html-keyboard-response","239","161052","0.0-9.0-2.73","333","02/20/2024","","sabotage","easy-hard","2","9","74","[0.9,0.5,0.1]","5","0","51","","false","5150","",""
"null","<div style='font-size:40px'>+</div>","null","html-keyboard-response","240","161554","0.0-9.0-0.74","","","","","","","","","","","","","","","","",""
"284","
            <div class='image-container'>
                <img class='stimuli-left' src='stim/avatar/0/red.png'>
                <img class='stimuli-middle' src='stim/avatar/0/blue.png'>
                <img class='stimuli-right' src='stim/avatar/0/black.png'>
            </div>","3","html-keyboard-response","241","161839","0.0-9.0-1.74","","","","","","","","","","","","","","","","",""
"284","
                <div class='image-container'>
                    <img class='stimuli-left' src='stim/avatar/0/red.png'>
                    <img class='stimuli-middle' src='stim/avatar/0/blue.png'>
                    <img class='stimuli-right' src='stim/outcome/scaled_win.jpg'>
                </div>","3","html-keyboard-response","242","162843","0.0-9.0-2.74","333","02/20/2024","","sabotage","easy-hard","2","9","75","[0.9,0.5,0.1]","6","0","51","","false","5250","",""
"null","<div style='font-size:40px'>+</div>","null","html-keyboard-response","243","163345","0.0-9.0-0.75","","","","","","","","","","","","","","","","",""
"156","
            <div class='image-container'>
                <img class='stimuli-left' src='stim/avatar/0/red.png'>
                <img class='stimuli-middle' src='stim/avatar/0/blue.png'>
                <img class='stimuli-right' src='stim/avatar/0/black.png'>
            </div>","3","html-keyboard-response","244","163503","0.0-9.0-1.75","","","","","","","","","","","","","","","","",""
"156","
                <div class='image-container'>
                    <img class='stimuli-left' src='stim/avatar/0/red.png'>
                    <img class='stimuli-middle' src='stim/avatar/0/blue.png'>
                    <img class='stimuli-right' src='stim/outcome/scaled_win.jpg'>
                </div>","3","html-keyboard-response","245","164507","0.0-9.0-2.75","333","02/20/2024","","sabotage","easy-hard","2","9","76","[0.9,0.5,0.1]","7","0","51","","false","5350","",""
"null","<div style='font-size:40px'>+</div>","null","html-keyboard-response","246","165008","0.0-9.0-0.76","","","","","","","","","","","","","","","","",""
"296","
            <div class='image-container'>
                <img class='stimuli-left' src='stim/avatar/0/red.png'>
                <img class='stimuli-middle' src='stim/avatar/0/blue.png'>
                <img class='stimuli-right' src='stim/avatar/0/black.png'>
            </div>","3","html-keyboard-response","247","165307","0.0-9.0-1.76","","","","","","","","","","","","","","","","",""
"296","
                <div class='image-container'>
                    <img class='stimuli-left' src='stim/avatar/0/red.png'>
                    <img class='stimuli-middle' src='stim/avatar/0/blue.png'>
                    <img class='stimuli-right' src='stim/outcome/scaled_win.jpg'>
                </div>","3","html-keyboard-response","248","166311","0.0-9.0-2.76","333","02/20/2024","","sabotage","easy-hard","2","9","77","[0.9,0.5,0.1]","8","0","51","","false","5450","",""
"null","<div style='font-size:40px'>+</div>","null","html-keyboard-response","249","166814","0.0-9.0-0.77","","","","","","","","","","","","","","","","",""
"197","
            <div class='image-container'>
                <img class='stimuli-left' src='stim/avatar/0/red.png'>
                <img class='stimuli-middle' src='stim/avatar/0/blue.png'>
                <img class='stimuli-right' src='stim/avatar/0/black.png'>
            </div>","3","html-keyboard-response","250","167013","0.0-9.0-1.77","","","","","","","","","","","","","","","","",""
"197","
                <div class='image-container'>
                    <img class='stimuli-left' src='stim/avatar/0/red.png'>
                    <img class='stimuli-middle' src='stim/avatar/0/blue.png'>
                    <img class='stimuli-right' src='stim/outcome/scaled_lose.jpg'>
                </div>","3","html-keyboard-response","251","168017","0.0-9.0-2.77","333","02/20/2024","","sabotage","easy-hard","2","9","78","[0.9,0.5,0.1]","0","0","51","","false","5400","",""
"null","<div style='font-size:40px'>+</div>","null","html-keyboard-response","252","168519","0.0-9.0-0.78","","","","","","","","","","","","","","","","",""
"196","
            <div class='image-container'>
                <img class='stimuli-left' src='stim/avatar/0/red.png'>
                <img class='stimuli-middle' src='stim/avatar/0/blue.png'>
                <img class='stimuli-right' src='stim/avatar/0/black.png'>
            </div>","2","html-keyboard-response","253","168717","0.0-9.0-1.78","","","","","","","","","","","","","","","","",""
"196","
                <div class='image-container'>
                    <img class='stimuli-left' src='stim/avatar/0/red.png'>
                    <img class='stimuli-middle' src='stim/outcome/scaled_win.jpg'>
                    <img class='stimuli-right' src='stim/avatar/0/black.png'>
                </div>","2","html-keyboard-response","254","169721","0.0-9.0-2.78","333","02/20/2024","","sabotage","easy-hard","2","9","79","[0.9,0.5,0.1]","0","1","50","","false","5500","",""
"null","<div style='font-size:40px'>+</div>","null","html-keyboard-response","255","170222","0.0-9.0-0.79","","","","","","","","","","","","","","","","",""
"248","
            <div class='image-container'>
                <img class='stimuli-left' src='stim/avatar/0/red.png'>
                <img class='stimuli-middle' src='stim/avatar/0/blue.png'>
                <img class='stimuli-right' src='stim/avatar/0/black.png'>
            </div>","2","html-keyboard-response","256","170473","0.0-9.0-1.79","","","","","","","","","","","","","","","","",""
"248","
                <div class='image-container'>
                    <img class='stimuli-left' src='stim/avatar/0/red.png'>
                    <img class='stimuli-middle' src='stim/outcome/scaled_win.jpg'>
                    <img class='stimuli-right' src='stim/avatar/0/black.png'>
                </div>","2","html-keyboard-response","257","171476","0.0-9.0-2.79","333","02/20/2024","","sabotage","easy-hard","2","9","80","[0.9,0.5,0.1]","0","2","50","","false","5600","",""
"663","You are 50% done with the experiment. Please press the (0) key to proceed.","0","html-keyboard-response","258","172139","0.0-9.0-3.79-0.79","","","","","","","","","","","","","","","","",""
"null","<div style='font-size:40px'>+</div>","null","html-keyboard-response","259","172640","0.0-9.0-0.80","","","","","","","","","","","","","","","","",""
"502","
            <div class='image-container'>
                <img class='stimuli-left' src='stim/avatar/0/red.png'>
                <img class='stimuli-middle' src='stim/avatar/0/blue.png'>
                <img class='stimuli-right' src='stim/avatar/0/black.png'>
            </div>","3","html-keyboard-response","260","173144","0.0-9.0-1.80","","","","","","","","","","","","","","","","",""
"502","
                <div class='image-container'>
                    <img class='stimuli-left' src='stim/avatar/0/red.png'>
                    <img class='stimuli-middle' src='stim/avatar/0/blue.png'>
                    <img class='stimuli-right' src='stim/outcome/scaled_lose.jpg'>
                </div>","3","html-keyboard-response","261","174147","0.0-9.0-2.80","333","02/20/2024","","sabotage","easy-hard","2","9","81","[0.4,0.8,0.2]","0","1","51","","true","5550","",""
"null","<div style='font-size:40px'>+</div>","null","html-keyboard-response","262","174649","0.0-9.0-0.81","","","","","","","","","","","","","","","","",""
"220","
            <div class='image-container'>
                <img class='stimuli-left' src='stim/avatar/0/red.png'>
                <img class='stimuli-middle' src='stim/avatar/0/blue.png'>
                <img class='stimuli-right' src='stim/avatar/0/black.png'>
            </div>","1","html-keyboard-response","263","174871","0.0-9.0-1.81","","","","","","","","","","","","","","","","",""
"220","
                <div class='image-container'>
                    <img class='stimuli-left' src='stim/outcome/scaled_lose.jpg'>
                    <img class='stimuli-middle' src='stim/avatar/0/blue.png'>
                    <img class='stimuli-right' src='stim/avatar/0/black.png'>
                </div>","1","html-keyboard-response","264","175875","0.0-9.0-2.81","333","02/20/2024","","sabotage","easy-hard","2","9","82","[0.4,0.8,0.2]","0","2","49","","false","5500","",""
"null","<div style='font-size:40px'>+</div>","null","html-keyboard-response","265","176376","0.0-9.0-0.82","","","","","","","","","","","","","","","","",""
"196","
            <div class='image-container'>
                <img class='stimuli-left' src='stim/avatar/0/red.png'>
                <img class='stimuli-middle' src='stim/avatar/0/blue.png'>
                <img class='stimuli-right' src='stim/avatar/0/black.png'>
            </div>","2","html-keyboard-response","266","176807","0.0-9.0-1.82","","","","","","","","","","","","","","","","",""
"196","
                <div class='image-container'>
                    <img class='stimuli-left' src='stim/avatar/0/red.png'>
                    <img class='stimuli-middle' src='stim/outcome/scaled_win.jpg'>
                    <img class='stimuli-right' src='stim/avatar/0/black.png'>
                </div>","2","html-keyboard-response","267","177810","0.0-9.0-2.82","333","02/20/2024","","sabotage","easy-hard","2","9","83","[0.4,0.8,0.2]","1","2","50","","false","5600","",""
"null","<div style='font-size:40px'>+</div>","null","html-keyboard-response","268","178312","0.0-9.0-0.83","","","","","","","","","","","","","","","","",""
"226","
            <div class='image-container'>
                <img class='stimuli-left' src='stim/avatar/0/red.png'>
                <img class='stimuli-middle' src='stim/avatar/0/blue.png'>
                <img class='stimuli-right' src='stim/avatar/0/black.png'>
            </div>","2","html-keyboard-response","269","178541","0.0-9.0-1.83","","","","","","","","","","","","","","","","",""
"226","
                <div class='image-container'>
                    <img class='stimuli-left' src='stim/avatar/0/red.png'>
                    <img class='stimuli-middle' src='stim/outcome/scaled_win.jpg'>
                    <img class='stimuli-right' src='stim/avatar/0/black.png'>
                </div>","2","html-keyboard-response","270","179544","0.0-9.0-2.83","333","02/20/2024","","sabotage","easy-hard","2","9","84","[0.4,0.8,0.2]","2","2","50","","false","5700","",""
"null","<div style='font-size:40px'>+</div>","null","html-keyboard-response","271","180045","0.0-9.0-0.84","","","","","","","","","","","","","","","","",""
"203","
            <div class='image-container'>
                <img class='stimuli-left' src='stim/avatar/0/red.png'>
                <img class='stimuli-middle' src='stim/avatar/0/blue.png'>
                <img class='stimuli-right' src='stim/avatar/0/black.png'>
            </div>","2","html-keyboard-response","272","180251","0.0-9.0-1.84","","","","","","","","","","","","","","","","",""
"203","
                <div class='image-container'>
                    <img class='stimuli-left' src='stim/avatar/0/red.png'>
                    <img class='stimuli-middle' src='stim/outcome/scaled_win.jpg'>
                    <img class='stimuli-right' src='stim/avatar/0/black.png'>
                </div>","2","html-keyboard-response","273","181254","0.0-9.0-2.84","333","02/20/2024","","sabotage","easy-hard","2","9","85","[0.4,0.8,0.2]","3","2","50","","false","5800","",""
"null","<div style='font-size:40px'>+</div>","null","html-keyboard-response","274","181756","0.0-9.0-0.85","","","","","","","","","","","","","","","","",""
"153","
            <div class='image-container'>
                <img class='stimuli-left' src='stim/avatar/0/red.png'>
                <img class='stimuli-middle' src='stim/avatar/0/blue.png'>
                <img class='stimuli-right' src='stim/avatar/0/black.png'>
            </div>","2","html-keyboard-response","275","181911","0.0-9.0-1.85","","","","","","","","","","","","","","","","",""
"153","
                <div class='image-container'>
                    <img class='stimuli-left' src='stim/avatar/0/red.png'>
                    <img class='stimuli-middle' src='stim/outcome/scaled_win.jpg'>
                    <img class='stimuli-right' src='stim/avatar/0/black.png'>
                </div>","2","html-keyboard-response","276","182915","0.0-9.0-2.85","333","02/20/2024","","sabotage","easy-hard","2","9","86","[0.4,0.8,0.2]","4","2","50","","false","5900","",""
"null","<div style='font-size:40px'>+</div>","null","html-keyboard-response","277","183416","0.0-9.0-0.86","","","","","","","","","","","","","","","","",""
"165","
            <div class='image-container'>
                <img class='stimuli-left' src='stim/avatar/0/red.png'>
                <img class='stimuli-middle' src='stim/avatar/0/blue.png'>
                <img class='stimuli-right' src='stim/avatar/0/black.png'>
            </div>","2","html-keyboard-response","278","183584","0.0-9.0-1.86","","","","","","","","","","","","","","","","",""
"165","
                <div class='image-container'>
                    <img class='stimuli-left' src='stim/avatar/0/red.png'>
                    <img class='stimuli-middle' src='stim/outcome/scaled_win.jpg'>
                    <img class='stimuli-right' src='stim/avatar/0/black.png'>
                </div>","2","html-keyboard-response","279","184588","0.0-9.0-2.86","333","02/20/2024","","sabotage","easy-hard","2","9","87","[0.4,0.8,0.2]","5","2","50","","false","6000","",""
"null","<div style='font-size:40px'>+</div>","null","html-keyboard-response","280","185090","0.0-9.0-0.87","","","","","","","","","","","","","","","","",""
"154","
            <div class='image-container'>
                <img class='stimuli-left' src='stim/avatar/0/red.png'>
                <img class='stimuli-middle' src='stim/avatar/0/blue.png'>
                <img class='stimuli-right' src='stim/avatar/0/black.png'>
            </div>","2","html-keyboard-response","281","185246","0.0-9.0-1.87","","","","","","","","","","","","","","","","",""
"154","
                <div class='image-container'>
                    <img class='stimuli-left' src='stim/avatar/0/red.png'>
                    <img class='stimuli-middle' src='stim/outcome/scaled_lose.jpg'>
                    <img class='stimuli-right' src='stim/avatar/0/black.png'>
